Folder: mcp-remote/durabler1/data/Testdataexport/S1 Tensile 10mm from snickers 08-25-25 14 42 42 PM

File: Test Data - (Timed)1.csv
"File Path: S:\Durabler\Certificates\Testdataexport\S1 Tensile 10mm from snickers 08-25-25 14 42 42 PM\Test Data - (Timed).csv   "
"Test: TensileUn 23"
"Test Run: S1 Tensile 10mm from snickers"
"Date: 8/25/2025 2:08:35 PM"
""
""
"Running Time ","Axial Displacement ","Axial Force ","Axial Ext "
"sec","mm","kN","mm"
"0.219727","-19.8919","0.0881908","-0.00421093"
"1.61995","-19.8925","0.0930083","-0.00700502"
"3.02018","-19.8937","0.0998352","-0.00715671"
"4.42041","-19.8501","0.969242","-0.00519789"
"5.82064","-19.767","2.62063","-0.00190676"
"7.22087","-19.6823","3.255","-0.000227666"
"8.62109","-19.5987","5.09102","0.0113315"
"10.0213","-19.5137","7.77533","0.0148321"
"11.4215","-19.4306","10.8621","0.0211243"
"12.8218","-19.3459","14.3107","0.0228698"
"14.222","-19.2612","18.0257","0.0334565"
"15.6222","-19.1778","21.8885","0.0445024"
"17.0225","-19.0934","25.8916","0.0556337"
"18.4227","-19.0092","29.9147","0.0681948"
"19.8229","-18.925","34.0126","0.0752664"
"21.2231","-18.8416","37.9997","0.0894413"
"22.6234","-18.7582","41.7899","0.0992773"
"24.0236","-18.6743","44.9068","0.115799"
"25.4238","-18.5897","46.8238","0.141618"
"26.8241","-18.5033","47.71","0.165154"
"28.2243","-18.421","47.8126","0.182707"
"29.6245","-18.3371","47.8406","0.200317"
"31.0247","-18.2532","47.6923","0.248983"
"32.425","-18.169","47.8102","0.310821"
"33.8252","-18.0858","48.0087","0.37221"
"35.2254","-17.9999","48.1803","0.430324"
"36.6257","-17.9173","48.2871","0.487447"
"38.0259","-17.8337","48.2489","0.535902"
"39.4261","-17.7463","48.2212","0.576769"
"40.8263","-17.665","48.3707","0.625703"
"42.2266","-17.5806","48.7116","0.666514"
"43.6268","-17.4964","48.9259","0.701453"
"45.027","-17.4133","49.1097","0.737432"
"46.4272","-17.3301","49.2735","0.77187"
"47.8275","-17.2454","49.4252","0.805497"
"49.2277","-17.1605","49.6254","0.840459"
"50.6279","-17.0759","49.8182","0.874659"
"52.0282","-16.9924","49.9794","0.909648"
"53.4284","-16.9084","50.1573","0.951099"
"54.8286","-16.825","50.3846","0.985715"
"56.2288","-16.7413","50.5474","1.02777"
"57.6291","-16.6577","50.7442","1.06133"
"59.0293","-16.5727","50.9055","1.10444"
"60.4295","-16.4888","51.0859","1.13718"
"61.8298","-16.4054","51.2604","1.17525"
"63.23","-16.3221","51.4113","1.213"
"64.6302","-16.2367","51.6087","1.25579"
"66.0304","-16.1526","51.7583","1.28761"
"67.4307","-16.0698","51.9573","1.32597"
"68.8309","-15.9846","52.1238","1.36717"
"70.2311","-15.901","52.293","1.40575"
"71.6313","-15.817","52.4415","1.44358"
"73.0316","-15.7328","52.6005","1.48374"
"74.4318","-15.6494","52.7523","1.52136"
"75.832","-15.5643","52.9185","1.55605"
"77.2323","-15.4811","53.0624","1.59976"
"78.6325","-15.3965","53.2191","1.63293"
"80.0327","-15.3124","53.366","1.67058"
"81.4329","-15.2278","53.516","1.7133"
"82.8332","-15.1446","53.655","1.74868"
"84.2334","-15.0601","53.7856","1.78611"
"85.6336","-14.976","53.9254","1.82376"
"87.0339","-14.8927","54.0618","1.86498"
"88.4341","-14.8078","54.1882","1.90367"
"89.8343","-14.7238","54.2986","1.94373"
"91.2345","-14.6409","54.4372","1.98276"
"92.6348","-14.5548","54.5687","2.02325"
"94.035","-14.4723","54.679","2.06215"
"95.4352","-14.3877","54.7901","2.1025"
"96.8354","-14.3039","54.9159","2.14191"
"98.2357","-14.2197","55.0246","2.1829"
"99.6359","-14.1373","55.1355","2.21879"
"101.036","-14.0522","55.2588","2.25907"
"102.436","-13.9671","55.3498","2.30271"
"103.837","-13.8844","55.4632","2.34289"
"105.237","-13.7998","55.5509","2.37937"
"106.637","-13.7156","55.657","2.4206"
"108.037","-13.6324","55.7578","2.45881"
"109.4375","-13.5494","55.8545","2.50088"
"110.838","-13.4645","55.9457","2.54545"
"112.238","-13.3801","56.0442","2.58668"
"113.638","-13.2959","56.1334","2.62089"
"115.038","-13.2117","56.2146","2.66824"
"116.439","-13.1279","56.2973","2.70903"
"117.839","-13.0429","56.3713","2.7493"
"119.239","-12.9603","56.4469","2.79687"
"120.639","-12.8754","56.531","2.83444"
"122.04","-12.7918","56.5998","2.8859"
"123.44","-12.7067","56.6913","2.91884"
"124.84","-12.6243","56.7716","2.96012"
"126.24","-12.5396","56.8308","3.00509"
"127.64","-12.4561","56.9082","3.04811"
"129.041","-12.3726","56.967","3.08892"
"130.441","-12.2873","57.0369","3.13221"
"131.841","-12.2035","57.098","3.1727"
"133.241","-12.1188","57.1643","3.21677"
"134.642","-12.0353","57.2139","3.25837"
"136.042","-11.952","57.2871","3.29431"
"137.442","-11.8682","57.3318","3.3373"
"138.842","-11.7835","57.3873","3.37884"
"140.243","-11.7007","57.4477","3.41886"
"141.643","-11.6157","57.4945","3.46112"
"143.043","-11.5317","57.5491","3.50463"
"144.443","-11.448","57.6036","3.53599"
"145.843","-11.3633","57.6521","3.58417"
"147.244","-11.2799","57.6887","3.62812"
"148.644","-11.1964","57.7512","3.67087"
"150.044","-11.112","57.7796","3.7056"
"151.444","-11.0279","57.8339","3.75125"
"152.845","-10.9429","57.8794","3.79573"
"154.245","-10.8594","57.9121","3.84128"
"155.645","-10.7759","57.972","3.89031"
"157.045","-10.6916","58.0003","3.92813"
"158.445","-10.6072","58.0386","3.9751"
"159.846","-10.5241","58.0876","4.01701"
"161.246","-10.439","58.0952","4.06253"
"162.646","-10.3563","58.1444","4.10693"
"164.046","-10.2712","58.2054","4.15369"
"165.447","-10.1875","58.2224","4.19368"
"166.847","-10.103","58.2488","4.24049"
"168.247","-10.0207","58.2726","4.28507"
"169.647","-9.93463","58.3049","4.32799"
"171.048","-9.85105","58.3481","4.37387"
"172.448","-9.7675","58.35","4.42225"
"173.848","-9.68355","58.3861","4.46766"
"175.248","-9.59826","58.4176","4.51174"
"176.648","-9.51589","58.4296","4.56478"
"178.049","-9.43083","58.4646","4.61185"
"179.449","-9.34698","58.4889","4.65971"
"180.849","-9.2641","58.5034","4.70746"
"182.249","-9.17933","58.5353","4.74989"
"183.65","-9.09476","58.5434","4.80617"
"185.05","-9.01152","58.5662","4.85629"
"186.45","-8.92741","58.5883","4.89476"
"187.85","-8.84318","58.5911","4.95093"
"189.25","-8.75961","58.6029","5.00413"
"190.651","-8.67475","58.639","5.04435"
"192.051","-8.59053","58.6414","5.10345"
"193.451","-8.50706","58.6561","5.14623"
"194.851","-8.42349","58.669","5.19596"
"196.252","-8.33887","58.6919","5.24146"
"197.652","-8.25485","58.6893","5.29764"
"199.052","-8.16985","58.7031","5.34952"
"200.452","-8.08688","58.6941","5.40496"
"201.853","-8.00355","58.7212","5.45958"
"203.253","-7.91814","58.7352","5.51552"
"204.653","-7.83602","58.7397","5.56682"
"206.053","-7.75173","58.7394","5.62727"
"207.453","-7.66764","58.749","5.68169"
"208.854","-7.58459","58.7218","5.73942"
"210.254","-7.4988","58.7391","5.79534"
"211.654","-7.4153","58.7796","5.8526"
"213.054","-7.33197","58.76","5.91262"
"214.455","-7.24757","58.7699","5.96785"
"215.855","-7.16221","58.7713","6.03027"
"217.255","-7.07782","58.7475","6.0932"
"218.655","-6.99447","58.7678","6.14878"
"220.055","-6.91093","58.7549","6.21125"
"221.456","-6.82587","58.7497","6.27486"
"222.856","-6.74335","58.7485","6.33638"
"224.256","-6.65849","58.7292","6.40585"
"225.656","-6.5757","58.7156","6.47225"
"227.057","-6.49058","58.6937","6.53935"
"228.457","-6.40698","58.6889","6.60505"
"229.857","-6.32243","58.664","6.67519"
"231.257","-6.23872","58.6421","6.73875"
"232.658","-6.15489","58.6292","6.81232"
"234.058","-6.07237","58.5994","6.88073"
"235.458","-5.98648","58.5619","6.96298"
"236.858","-5.90202","58.536","7.0323"
"238.258","-5.81801","58.4878","7.10399"
"239.659","-5.73524","58.4494","7.17925"
"241.059","-5.64931","58.3854","7.25658"
"242.459","-5.56728","58.3379","7.33904"
"243.859","-5.48152","58.2511","7.41846"
"245.26","-5.39946","58.1793","7.49588"
"246.66","-5.31445","58.0974","7.57853"
"248.06","-5.22943","58.0059","7.65982"
"249.46","-5.14734","57.8922","7.74207"
"250.861","-5.0634","57.7635","7.82847"
"252.261","-4.97956","57.6274","7.91524"
"253.661","-4.89441","57.5088","7.9973"
"255.061","-4.81157","57.367","8.07924"
"256.461","-4.72605","57.1777","8.17256"
"257.862","-4.64269","57.0188","8.25498"
"259.262","-4.55907","56.8459","8.34752"
"260.662","-4.47444","56.634","8.42454"
"262.062","-4.38922","56.4588","8.51853"
"263.463","-4.30698","56.2397","8.60344"
"264.863","-4.22258","56.021","8.69163"
"266.263","-4.13775","55.811","8.77723"
"267.663","-4.05401","55.5643","8.86925"
"269.063","-3.97012","55.306","8.95685"
"270.464","-3.88555","55.0583","9.0397"
"271.864","-3.80145","54.8005","9.12988"
"273.264","-3.71817","54.5165","9.21665"
"274.664","-3.63456","54.232","9.30489"
"276.065","-3.55015","53.9271","9.3893"
"277.465","-3.46599","53.6107","9.48477"
"278.865","-3.38247","53.3026","9.57372"
"280.265","-3.2979","52.9625","9.66615"
"281.666","-3.21379","52.656","9.74897"
"283.066","-3.13098","52.2737","9.85011"
"284.466","-3.04642","51.9456","9.93347"
"285.866","-2.96218","51.5668","10.0277"
"287.266","-2.87801","51.1805","10.1143"
"288.667","-2.79428","50.7883","10.1963"
"290.067","-2.71062","50.3603","10.2984"
"291.467","-2.62639","49.9597","10.3826"
"292.867","-2.54181","49.5081","10.4765"
"294.268","-2.4587","49.0937","10.5646"
"295.668","-2.37353","48.6122","10.657"
"297.068","-2.29086","48.14","10.752"
"298.468","-2.2057","47.654","10.8442"
"299.868","-2.12252","47.1239","10.932"
"301.269","-2.03759","46.6099","11.0292"
"302.669","-1.9529","46.07125","11.1258"
"304.069","-1.87053","45.5232","11.2209"
"305.469","-1.786","44.9346","11.3083"
"306.87","-1.70216","44.3449","11.4046"
"308.27","-1.61856","43.7189","11.4924"
"309.67","-1.53381","43.055","11.5926"
"311.07","-1.45019","42.3352","11.6901"
"312.471","-1.36542","41.1922","11.798"
"313.871","-1.28196","-0.0304629","-0.000411906"
"315.271","-1.19734","0.0105553","-0.000427934"
"316.671","-1.11401","-0.0183309","-0.000240569"
"318.071","-1.03049","-0.00976643","-0.00036687"
"319.472","-0.946091","0.00262744","-0.000528553"
"320.872","-0.861818","-0.0160141","-4.30865e-05"
"321.272","-0.837085","0.00715448","-0.000544107"